sentinal	footer	temp	gx	gy	gz	ax	ay	az	sentinal
-16069	80	187	115	4608	2304	16128	-15788	-29	188	-23	6592	-4992	14096
-16066	97	249	133	4672	2304	15968	-15755	-26	74	-46	6480	-5152	13840
-16086	83	197	123	4624	2304	15936	-15764	-24	192	-50	6528	-5024	14320
-16086	86	208	117	4608	2304	16032	-15756	-21	216	-68	6544	-5104	14016
-16079	93	239	123	4592	2432	15888	-15758	56	142	-70	6640	-5040	14224
-16081	73	200	127	4480	2320	16064	-15755	5	192	-74	6656	-4928	13936
-16069	84	213	117	4608	2256	16000	-15749	30	171	-45	6592	-4720	14048
-16067	84	226	139	4592	2336	15984	-15749	-394	309	-35	6576	-5392	13872
-16064	35	179	263	3968	1536	15520	-15745	-2554	61	919	5392	-4624	14080
-16072	-210	-137	-7	4192	2432	16656	-15751	-4428	503	660	3296	-4384	12816
-16085	42	-164	85	3984	2448	16128	-15741	-1075	609	-24	1904	-3424	11648
-16074	3	483	114	4560	1968	16144	-15741	3692	176	-1168	5456	-5136	15984
-16068	261	493	-41	4528	2176	15904	-15742	3479	-98	-953	6720	-5408	14352
-16083	448	570	27	4640	2096	15840	-15746	3318	-127	-741	7984	-5072	14528
-16063	188	149	-32	4656	2304	16480	-15744	1802	205	-363	8384	-4640	14800
-16079	233	353	199	4672	2800	15456	-15721	-1572	293	208	8864	-5376	17056
-16080	-68	71	348	4064	2464	16128	-15706	-5091	25	1580	5552	-4800	14256
-16072	-303	-723	196	4576	1840	16432	-15709	-6042	482	1180	2560	-3728	12512
-16082	78	311	206	4256	2320	15616	-15728	-2118	383	389	960	-4368	10720
-16063	51	285	111	4560	1936	16336	-15714	3367	291	-1294	4064	-5696	15040
-16082	66	407	-129	4432	2240	16144	-15707	5177	-315	-1458	6384	-5232	15040
-16081	179	538	8	4544	2208	15776	-15706	3646	23	-843	7392	-4560	14464
-16077	322	473	-19	4384	2128	15872	-15707	1527	404	-507	8112	-4112	14944
-16080	166	260	170	4672	2432	16128	-15679	-644	240	-72	8016	-5392	14976
-16078	43	155	218	4480	2368	16032	-15695	-3144	77	982	6912	-4848	16768
-16083	-248	-588	292	4384	1920	16192	-15679	-5210	328	1460	3808	-4304	13248
-16086	41	318	145	4608	2016	15872	-15664	-3388	928	654	1104	-3024	10288
-16083	68	75	20	4368	1952	16496	-15674	1867	422	-713	3120	-3504	13856
-16089	125	562	-46	4288	2432	15792	-15664	3523	141	-1385	5520	-4784	15904
-16091	141	698	-17	5280	2336	15936	-15661	3505	382	-1103	7168	-5296	15104
-16091	313	336	46	4400	2480	16320	-15658	1739	437	-353	7856	-4512	15728
-16088	61	132	203	4592	2352	16128	-15667	-2116	486	872	6160	-3904	13248
-16087	291	265	73	4672	2576	16032	-15658	-1710	1452	2343	5376	-4608	12992
-16090	394	332	-43	4288	2768	15696	-15658	-491	2891	3381	4352	-880	14304
-16083	460	230	113	5344	2080	15760	-15659	476	1194	1960	4016	592	15488
-16088	233	49	424	4752	2256	16288	-15656	502	-757	-2119	5168	-2144	15344
-16102	-700	9	55	5040	2160	16304	-15655	519	-2547	-3911	5840	-2992	13488
-16096	-482	-107	117	3808	2864	16160	-15649	1200	-2908	-4133	7520	-6256	14816
-16091	-354	788	368	3984	2976	14720	-15650	-82	-837	-1791	7504	-7024	13712
-16092	122	-580	-257	5360	1952	16832	-15645	-179	730	1559	6864	-4480	14016
-16080	1155	954	-25	2080	2496	16656	-15636	-330	1827	2823	6416	-4480	14288
-16096	535	343	27	5088	2752	15536	-15643	109	2160	3486	5856	-3248	14384
-16096	508	-94	-29	4944	1952	16048	-15626	641	1378	2251	5232	-384	15904
-16092	204	606	325	3680	2720	15376	-15627	102	-128	-1250	6064	-2992	15488
-16095	-595	175	253	3952	1936	16592	-15619	-153	-1585	-3295	5840	-512	14384
-16109	-1030	-274	-10	4656	2096	16640	-15620	330	-2087	-4284	7552	-6832	14960
-16103	-296	721	342	4432	2464	15088	-15626	-180	-613	-1378	7456	-6592	13312
-16093	198	-134	-149	3280	3136	16960	-15617	-81	804	1188	6992	-4256	14576
-16094	687	383	-11	4608	2384	16640	-15613	-234	1064	2136	6288	-4032	14144
-16109	733	877	68	4352	3552	14768	-15605	-73	1509	2316	6368	-3904	15120
-16100	540	39	138	6192	1888	15936	-15600	-134	1808	2797	5840	-3232	14144
-16102	379	-40	112	5520	1904	16688	-15611	272	929	1635	5472	-1760	15248
-16104	167	323	109	4880	2656	15424	-15618	213	110	-549	5776	-3072	14224
-16110	-78	343	275	5744	2112	15424	-15601	-30	-313	-1711	5872	-2752	13792
-16096	-468	10	200	3952	2784	16240	-15608	365	-896	-2974	6848	-6160	12704
-16110	-278	126	-60	4528	1920	16128	-15611	1048	-541	-1405	7744	-4832	15392
-16100	190	427	107	4784	2528	15744	-15610	-404	51	292	7824	-4944	16896
-16106	127	3	152	4736	2368	16128	-15600	-3525	-190	1143	5296	-3344	14864
-16104	-34	74	306	4768	2176	16304	-15600	-4457	-59	776	2704	-3312	12560
-16095	-93	8	166	4592	2320	16000	-15599	-2741	289	407	1456	-3920	11232
-16112	46	95	11	4416	1968	16464	-15584	2340	542	-392	3424	-3744	12096
-16106	531	385	-104	4576	2576	16304	-15581	5807	797	-1206	6880	-4480	16048
-16094	87	893	-45	4800	2704	14928	-15575	3111	274	-607	7264	-3792	14832
-16103	181	104	101	4640	2288	16416	-15590	1334	297	-79	7984	-3296	16720
-16106	63	-162	144	4560	2384	16192	-15573	-1268	-5	231	7200	-4160	15040
-16107	143	800	293	4384	2592	15424	-15587	-3477	3	829	5488	-4032	14048
-16103	-10	-181	118	4512	2448	16080	-15565	-4046	-189	780	3664	-3504	14336
-16116	1	-162	341	4768	2016	16336	-15573	-3946	109	696	1536	-3616	13632
-16097	183	215	154	4656	2160	15936	-15574	-932	262	130	784	-3168	11600
-16115	138	491	-101	4096	2592	15728	-15556	3642	525	-1038	3600	-4992	13680
-16102	124	373	57	4608	2512	16176	-15558	4358	450	-1005	5744	-3872	16528
-16113	135	136	-64	4448	2496	15968	-15554	2579	353	-516	6672	-3632	14032
-16106	189	233	24	5280	2528	15696	-15562	1914	582	-368	7488	-3392	15552
-16112	124	268	265	4848	2448	15824	-15538	251	51	-66	7056	-2928	14544
-16112	35	49	139	4704	2336	16208	-15552	-1609	-85	250	7312	-3840	17296
-16104	-12	213	271	4816	2208	15504	-15539	-4322	-695	889	4784	-3920	14336
-16112	82	83	260	4784	2176	16224	-15545	-3427	-112	825	2224	-3008	13088
-16122	80	-22	38	4624	2304	15856	-15541	-448	453	-8	1968	-1968	12320
-16118	177	492	-43	4752	2528	15568	-15528	3750	397	-1596	5376	-3920	16464
-16116	49	284	122	4832	2480	16160	-15552	3190	-611	-660	6976	-6304	15344
-16107	194	87	38	4752	2352	16032	-15535	2554	-6742	2220	7312	-6144	14816
-16108	363	-200	301	4560	1840	15632	-15510	1310	-7933	2955	6800	-9840	11312
-16103	167	-412	201	4480	1728	16288	-15517	544	-5747	2346	5968	-11760	8080
-16122	147	302	221	4896	1856	15696	-15522	1197	-3870	1770	6112	-13552	7888
-16116	114	74	15	4912	1952	16128	-15519	908	-2748	1465	5824	-13936	6256
-16122	275	140	126	5152	2128	15552	-15509	846	-2385	1086	5440	-14320	5376
-16111	85	142	117	4880	1936	15888	-15508	544	-1465	619	5008	-13936	5104
-16123	134	42	143	4880	1872	16032	-15512	-230	1548	-662	5232	-13552	5072
-16109	68	623	188	5008	2048	15776	-15510	-2216	6637	-2980	6368	-13024	6768
-16116	51	231	114	4016	2640	16528	-15494	-2680	7466	-3685	6480	-10976	10096
-16108	-263	956	-409	5008	2112	16160	-15508	-2165	8575	-3108	6992	-9520	13008
-16118	2	278	-70	4080	2832	15408	-15491	-404	7177	-1507	6128	-4768	13104
-16119	7	473	108	4160	2496	15632	-15481	-727	6245	-1127	5840	-1344	15312
-16108	-6	138	31	4912	2064	16128	-15484	-1150	5933	-834	5424	0	15616
-16115	57	285	100	4560	2672	15760	-15478	-1558	5376	-791	4464	2816	15088
-16110	104	286	86	4848	2320	15968	-15459	-1528	3545	-594	3232	4000	13408
-16110	75	173	69	4608	2368	15952	-15458	-686	1980	-316	2976	4784	13712
-16118	75	280	67	4800	2448	15792	-15466	69	1020	62	2768	6960	14656
-16119	94	215	157	4832	2496	15888	-15431	203	553	17	3568	4736	15392
-16121	61	229	124	4752	2448	15808	-15457	-86	166	204	3808	4000	14528
-16129	218	164	-78	4960	2352	15968	-15444	1228	-9031	3706	3920	3136	14720
-16131	458	204	313	4176	2528	15552	-15440	2992	-14616	4857	6160	-5232	15376
-16125	46	-100	364	5072	3008	16272	-15431	1700	-8874	2555	6464	-10896	11824
-16124	65	-72	198	4848	1776	16528	-15445	2588	-9802	3016	5664	-12208	7728
-16129	264	236	138	5280	2256	15696	-15425	3135	-6552	2668	6208	-13312	5680
-16124	447	-252	297	5616	1664	16192	-15432	2708	-4748	1725	5840	-15264	3456
-16124	541	-861	355	5056	1216	15904	-15421	1656	-3951	1594	5072	-15808	592
-16135	102	275	199	5552	1248	15872	-15410	1013	-2969	1123	4320	-15072	368
-16125	94	140	-25	5424	1360	15872	-15416	-1061	1580	-1501	5840	-17552	96
-16120	137	542	54	5104	1856	15920	-15404	-1817	6318	-2822	6544	-15008	2000
-16140	86	380	147	5280	1696	15888	-15396	-1692	5834	-3069	7152	-12896	5616
-16137	-85	568	-142	5648	1760	16384	-15403	-1467	5606	-2778	7632	-12624	7680
-16134	-46	718	-82	5648	2208	15376	-15409	-2168	8453	-3575	7936	-8272	10224
-16121	-139	447	-48	6720	2512	16272	-15392	-2486	11551	-4759	8448	-7664	12592
-16131	-2853	2205	-921	2144	2400	16832	-15389	-1296	9812	-2960	7184	-496	13840
-16129	-273	1350	115	3184	3824	14832	-15397	-323	6120	-1423	6576	3136	14352
-16124	-126	-1599	924	4960	1328	17520	-15379	-146	4408	-915	6560	5600	14512
-16122	1200	-1047	301	4112	2000	16848	-15376	-389	3668	-1061	6176	5168	12544
-16132	1564	1139	-169	3216	2816	14736	-15376	-16	1918	-631	5952	7056	12608
-16125	134	-571	83	4368	2656	15792	-15374	465	-768	135	6160	7216	13472
-16128	-638	-762	927	4416	2192	15968	-15356	331	-1182	236	6560	5312	14544
-16139	-471	585	-46	4368	2048	16352	-15368	-142	-2373	429	6976	3408	13504
-16130	749	1086	-96	4688	2624	14992	-15373	536	-5262	1437	7168	2848	14400
-16132	-16	-787	876	6608	2144	15920	-15356	414	-2940	529	7648	1488	14576
-16127	510	-5	-818	5680	704	16720	-15358	-813	-806	-355	7104	1216	15632
-16137	674	180	-321	4752	1568	16896	-15356	-569	-2549	164	6384	1168	13296
-16128	470	1167	383	5152	2480	15408	-15359	2934	-3179	66	8720	-656	13712
-16127	148	-31	-100	4768	2224	15952	-15368	4947	-2323	148	10256	-4848	12416
-16129	114	-270	171	4384	2032	16448	-15355	4567	-945	766	11408	-3744	10496
-16125	617	954	230	5648	2208	15216	-15338	3638	27	79	12432	-3056	10576
-16126	54	130	20	5392	2016	15632	-15345	96	408	-106	12848	-3696	12400
-16126	48	-127	311	5248	1936	16352	-15315	-6368	1199	137	11296	-1904	10336
-16132	89	443	223	5504	2336	15728	-15323	-9318	-4	-29	8000	-2192	12816
-16122	-47	328	56	4768	2512	15808	-15323	-4428	1203	196	4240	-2576	14352
-16125	2	-87	201	4912	2016	16192	-15322	-3220	-254	-545	3360	-4400	15680
-16119	55	337	161	4624	2400	15856	-15334	-1908	-2330	-597	2864	-3712	16016
-16127	-60	316	-34	5472	2128	15776	-15357	583	-209	975	4288	-5184	14304
-16140	71	207	161	5056	2224	15968	-15353	1555	1145	-261	4416	-3776	16336
-16137	50	308	80	5344	2080	15936	-15348	7667	4236	626	7184	-2048	12176
-16137	142	335	65	5008	2448	15776	-15343	8692	906	810	10816	-3264	13328
-16139	95	231	75	5120	2320	16048	-15348	6884	1140	553	12880	-2528	9904
-16137	75	123	76	4864	2176	16128	-15330	5414	1162	386	13952	-2480	6880
-16133	141	319	96	5040	2304	15600	-15328	2346	16	-59	13920	-2752	8208
-16129	113	164	61	4992	2400	15808	-15314	-4489	617	-1345	13280	-2080	9280
-16134	150	60	234	5056	1968	15696	-15292	-13993	-4655	-3688	10912	-2224	10304
-16152	46	230	185	5248	2304	16016	-15291	-6099	-5557	1238	6768	-3392	15040
-16132	94	109	144	4944	2160	15888	-15314	-571	-15	181	6160	-3872	13264
-16128	109	296	125	4976	2432	15808	-15331	-91	-267	-41	6448	-4320	14160
-16142	79	199	110	4944	2224	15904	-15343	-25	-248	47	6448	-5072	14912
-16135	70	190	151	4944	2304	15888	-15335	1285	717	227	6624	-5616	14080
-16126	145	232	83	4896	2336	15776	-15363	-537	-2326	1004	6560	-8096	10464
-16134	67	200	115	5360	1712	16080	-15367	164	-328	1446	6576	-7712	14000
-16129	119	143	95	5024	2192	15856	-15387	445	912	-534	6528	-6192	14912
-16128	87	286	171	5024	2400	15824	-15375	-310	-1164	-551	6256	-2400	13376
-16134	-43	157	153	5936	1856	15440	-15391	723	1436	-3289	7008	-5584	11872
-16136	62	327	29	4944	2304	15760	-15405	4243	4473	-768	12032	-8800	15664
-16128	165	197	0	5024	2320	15824	-15391	1021	4164	3672	8592	-4496	10992
-16150	243	158	144	4848	2048	15600	-15393	-58	4121	4072	8768	-1520	14128
-16140	301	230	141	5392	2368	15856	-15372	-589	729	1544	8416	-1792	14656
-16140	46	286	253	4288	2448	15872	-15356	-942	-2241	-1582	7888	-3856	14720
-16144	-110	171	30	5056	1904	15856	-15360	-875	-3165	-3658	8192	-3408	13104
-16139	-146	389	247	5280	2208	15760	-15371	-802	-2762	-4919	8688	-4304	12912
-16133	-103	203	63	5136	2096	15936	-15347	384	-877	-2795	9088	-5104	14080
-16134	24	133	21	4928	2240	15904	-15343	465	1219	718	9216	-6560	12944
-16137	202	190	79	6240	1216	15680	-15359	950	3769	4400	9040	-4464	12576
-16129	438	316	153	5504	2384	15456	-15359	-151	3297	4421	8528	-2400	12800
-16147	342	271	234	3888	3264	15520	-15343	-34	1640	2289	7952	-400	14928
-16146	291	-201	290	4928	2272	15632	-15323	-43	-1090	-1721	8480	-3024	13840
-16141	-181	20	125	4608	2112	16400	-15324	258	-2204	-3361	8640	-2512	12896
-16154	-470	649	19	4160	2128	15408	-15327	616	-2179	-4189	9712	-2912	14192
-16147	-190	231	46	4864	2320	15824	-15309	472	-1104	-2788	10288	-6096	13952
-16139	74	51	28	4672	2240	16128	-15309	-201	939	944	9456	-6160	12736
-16141	462	443	170	5328	1728	15728	-15288	119	2842	4123	8864	-4192	11632
-16144	519	299	135	4912	3024	14544	-15305	544	1958	2788	9200	-1168	14400
-16140	-216	-442	326	4000	2608	16176	-15300	-75	-10	-219	9520	-3392	14272
-16147	522	700	179	3840	2720	15616	-15279	-4060	-4313	-1255	8992	-8096	8368
-16142	80	-2	-96	5008	1936	15888	-15298	-2292	-6957	796	7456	-7920	19136
-16143	-90	-110	199	4784	2160	16128	-15298	-522	-6460	1006	7600	-8720	9952
-16156	207	424	133	5312	2320	15616	-15295	687	-3574	-2820	8896	-12816	8848
-16146	180	198	155	5168	2080	15776	-15316	1204	-1281	-2476	9136	-11216	10512
-16144	-278	194	201	2176	2656	16144	-15331	-3180	1267	-940	27536	3760	-32320
-16144	-60	123	68	4896	1968	16288	-15347	2663	3311	-348	8944	-11840	11824
-16148	131	431	46	4912	2304	15568	-15339	-4733	-1822	3165	5712	-384	10320
-16149	148	156	-27	4528	2272	16144	-15365	1107	-850	242	7600	-9632	8240
-16156	187	214	189	4768	2432	15616	-15354	1859	-855	2118	4656	-13040	1616
-16143	247	192	136	5216	2080	16000	-15371	4487	-1834	1704	8368	-16704	7680
-16148	108	158	91	4912	2560	15760	-15379	1487	567	-1506	8256	-9552	10112
-16154	51	249	154	4688	2336	16272	-15380	865	-121	-1211	6576	-9952	8448
-16153	495	190	241	5104	1984	15952	-15384	3359	-858	-403	8016	-9184	10560
-16148	299	307	155	5072	3264	13712	-15393	2147	797	67	7696	-10160	13376
-16149	-838	-671	442	4272	720	16784	-15394	8392	-4649	2783	8800	-7824	5392
-16156	-1060	-2766	-504	5488	512	16432	-15383	-2743	-1662	-2068	11408	-9904	9680
-16146	-333	-511	-294	4736	-2176	16128	-15397	-5773	-2347	-4441	11136	-12352	1216
-16155	884	1315	-630	3120	-304	16368	-15402	795	931	-1425	10608	-12976	4240
-16151	166	15	-200	4816	896	16080	-15394	-2976	1782	2119	6160	-12112	8640
-16160	282	1707	-337	6032	1744	15648	-15403	-9159	-6254	2130	7360	-13008	6992
-16160	820	1547	42	6256	2864	15648	-15409	-7074	-356	914	6656	-13536	8080
-16166	359	809	119	5152	2496	14640	-15410	-4184	-292	2144	3984	-13952	7328
-16145	-248	-48	-72	4928	3136	16032	-15406	-2657	1800	4405	1328	-13072	9600
-16148	-109	114	305	4464	1840	16304	-15411	-5923	4827	3878	-464	-12112	9264
